stair.thisTrialN,stair.stepSize,stair.intensity,thisRow.t,notes,trial.started,fixation.started,fixation.stopped,grating.started,key_resp.started,grating.stopped,trial.stopped,corrAns,tilt,key_resp.corr,stair.response,key_resp.rt,participant,session,date,expName,psychopyVersion,frameRate,expStart
0,2,10,0.0238131,,0.010317,0.0238131,0.506225,0.506225,0.506225,0.8053024,1.1528057,left,-10,1,1,0.5562017,381189,1,2024-09-10_16h28.30.209,adaptivestaricase,2024.1.5,None,2024-09-10 16h28.35.215850 +0530
1,2,8,1.1715143,,1.1529093,1.1715143,1.6553703,1.6553703,1.6553703,1.9559177,2.2420339,left,-8,1,1,0.5719163,381189,1,2024-09-10_16h28.30.209,adaptivestaricase,2024.1.5,None,2024-09-10 16h28.35.215850 +0530
2,2,6,2.2551884,,2.242123,2.2551884,2.754309,2.754309,2.754309,3.0545518,3.2403918,left,-6,1,1,0.4748454,381189,1,2024-09-10_16h28.30.209,adaptivestaricase,2024.1.5,None,2024-09-10 16h28.35.215850 +0530
3,1,4,3.2543421,,3.2404643,3.2543421,3.7378167,3.7378167,3.7378167,4.0372714,4.6230361,left,-4,0,0,0.8784635,381189,1,2024-09-10_16h28.30.209,adaptivestaricase,2024.1.5,None,2024-09-10 16h28.35.215850 +0530
4,1,5,4.6366466,,4.6231115,4.6366466,5.1365548,5.1365548,5.1365548,5.4368438,5.8575117,left,-5,1,1,0.714802,381189,1,2024-09-10_16h28.30.209,adaptivestaricase,2024.1.5,None,2024-09-10 16h28.35.215850 +0530
5,1,5,5.8701836,,5.8575851,5.8701836,6.3691191,6.3691191,6.3691191,6.6691724,7.0551611,left,-5,1,1,0.681342,381189,1,2024-09-10_16h28.30.209,adaptivestaricase,2024.1.5,None,2024-09-10 16h28.35.215850 +0530
6,1,5,7.0691247,,7.0552474,7.0691247,7.568678,7.568678,7.568678,7.8680445,8.0882002,right,5,1,1,0.5084482,381189,1,2024-09-10_16h28.30.209,adaptivestaricase,2024.1.5,None,2024-09-10 16h28.35.215850 +0530
7,1,4,8.1022117,,8.0882768,8.1022117,8.6013593,8.6013593,8.6013593,8.9010319,9.2042681,right,4,1,1,0.5999841,381189,1,2024-09-10_16h28.30.209,adaptivestaricase,2024.1.5,None,2024-09-10 16h28.35.215850 +0530
8,1,4,9.2180062,,9.2043885,9.2180062,9.7174342,9.7174342,9.7174342,10.0170408,10.3767119,left,-4,1,1,0.644736,381189,1,2024-09-10_16h28.30.209,adaptivestaricase,2024.1.5,None,2024-09-10 16h28.35.215850 +0530
9,1,4,10.3841608,,10.3768191,10.3841608,10.8835937,10.8835937,10.8835937,11.1832909,11.4366431,right,4,1,1,0.5492615,381189,1,2024-09-10_16h28.30.209,adaptivestaricase,2024.1.5,None,2024-09-10 16h28.35.215850 +0530
10,1,3,11.450118,,11.4367163,11.450118,11.949677,11.949677,11.949677,12.2491948,12.6195037,left,-3,1,1,0.657404,381189,1,2024-09-10_16h28.30.209,adaptivestaricase,2024.1.5,None,2024-09-10 16h28.35.215850 +0530
11,1,3,12.6325085,,12.6195905,12.6325085,13.1323915,13.1323915,13.1323915,13.4325096,13.8518902,left,-3,1,1,0.7145691,381189,1,2024-09-10_16h28.30.209,adaptivestaricase,2024.1.5,None,2024-09-10 16h28.35.215850 +0530
12,0,3,13.8654226,,13.851961,13.8654226,14.3648868,14.3648868,14.3648868,14.6708736,15.0184368,left,-3,0,0,0.6487537,381189,1,2024-09-10_16h28.30.209,adaptivestaricase,2024.1.5,None,2024-09-10 16h28.35.215850 +0530
13,0,3,15.0313604,,15.0185266,15.0313604,15.530873,15.530873,15.530873,15.8313046,16.6506081,left,-3,1,1,1.1174155,381189,1,2024-09-10_16h28.30.209,adaptivestaricase,2024.1.5,None,2024-09-10 16h28.35.215850 +0530
14,0,3,16.6637778,,16.6506805,16.6637778,17.1638905,17.1638905,17.1638905,17.4638178,18.0330283,left,-3,1,1,0.8559583,381189,1,2024-09-10_16h28.30.209,adaptivestaricase,2024.1.5,None,2024-09-10 16h28.35.215850 +0530
15,5,3,18.0465796,,18.0331188,18.0465796,18.5460632,18.5460632,18.5460632,18.8461587,18.9656473,right,3,1,1,0.415901,381189,1,2024-09-10_16h28.30.209,adaptivestaricase,2024.1.5,None,2024-09-10 16h28.35.215850 +0530
16,5,1,18.9792616,,18.965723,18.9792616,19.4790708,19.4790708,19.4790708,19.7790103,20.1319071,left,-1,1,1,0.6439825,381189,1,2024-09-10_16h28.30.209,adaptivestaricase,2024.1.5,None,2024-09-10 16h28.35.215850 +0530
17,5,1,20.1455195,,20.1319886,20.1455195,20.6448561,20.6448561,20.6448561,20.9452847,21.3477833,right,1,1,1,0.6937079,381189,1,2024-09-10_16h28.30.209,adaptivestaricase,2024.1.5,None,2024-09-10 16h28.35.215850 +0530
18,5,1,21.3612528,,21.3478552,21.3612528,21.8610495,21.8610495,21.8610495,22.1608379,22.5303949,left,-1,1,1,0.6535951,381189,1,2024-09-10_16h28.30.209,adaptivestaricase,2024.1.5,None,2024-09-10 16h28.35.215850 +0530
19,5,1,22.5441188,,22.5304866,22.5441188,23.0435666,23.0435666,23.0435666,23.3435028,23.7462752,left,-1,1,1,0.693763,381189,1,2024-09-10_16h28.30.209,adaptivestaricase,2024.1.5,None,2024-09-10 16h28.35.215850 +0530
20,5,1,23.7598909,,23.7463488,23.7598909,24.2596445,24.2596445,24.2596445,24.5598341,25.529267,left,-1,0,0,1.2555581,381189,1,2024-09-10_16h28.30.209,adaptivestaricase,2024.1.5,None,2024-09-10 16h28.35.215850 +0530
21,5,6,25.542737,,25.529359,25.542737,26.0421465,26.0421465,26.0421465,26.3420379,26.6116295,right,6,1,1,0.5579455,381189,1,2024-09-10_16h28.30.209,adaptivestaricase,2024.1.5,None,2024-09-10 16h28.35.215850 +0530
22,5,6,26.6251096,,26.611703,26.6251096,27.125102,27.125102,27.125102,27.4251936,27.7111983,right,6,1,1,0.5698038,381189,1,2024-09-10_16h28.30.209,adaptivestaricase,2024.1.5,None,2024-09-10 16h28.35.215850 +0530
23,5,6,27.7246131,,27.711286,27.7246131,28.224341,28.224341,28.224341,28.5242856,28.7437317,right,6,1,1,0.5169505,381189,1,2024-09-10_16h28.30.209,adaptivestaricase,2024.1.5,None,2024-09-10 16h28.35.215850 +0530
24,5,1,28.7573754,,28.7438058,28.7573754,29.2572088,29.2572088,29.2572088,29.5573056,29.9431416,left,-1,1,1,0.6839281,381189,1,2024-09-10_16h28.30.209,adaptivestaricase,2024.1.5,None,2024-09-10 16h28.35.215850 +0530
25,5,1,29.9566371,,29.9432253,29.9566371,30.4568251,30.4568251,30.4568251,30.7562835,31.1931678,right,1,1,1,0.730206,381189,1,2024-09-10_16h28.30.209,adaptivestaricase,2024.1.5,None,2024-09-10 16h28.35.215850 +0530
26,5,1,31.2059777,,31.1932501,31.2059777,31.7059669,31.7059669,31.7059669,32.0056737,32.3421968,left,-1,1,1,0.625751,381189,1,2024-09-10_16h28.30.209,adaptivestaricase,2024.1.5,None,2024-09-10 16h28.35.215850 +0530
27,5,1,32.3559302,,32.3422883,32.3559302,32.8551941,32.8551941,32.8551941,33.1550507,33.6746901,left,-1,1,1,0.8173736,381189,1,2024-09-10_16h28.30.209,adaptivestaricase,2024.1.5,None,2024-09-10 16h28.35.215850 +0530
28,5,1,33.6881871,,33.6747974,33.6881871,34.1879367,34.1879367,34.1879367,34.4882819,34.7410269,right,1,1,1,0.5412381,381189,1,2024-09-10_16h28.30.209,adaptivestaricase,2024.1.5,None,2024-09-10 16h28.35.215850 +0530
29,5,1,34.7548767,,34.7411097,34.7548767,35.2544348,35.2544348,35.2544348,35.5571528,36.0901672,right,1,1,1,0.8282621,381189,1,2024-09-10_16h28.30.209,adaptivestaricase,2024.1.5,None,2024-09-10 16h28.35.215850 +0530
30,5,1,36.103555,,36.0902728,36.103555,36.603424,36.603424,36.603424,36.9034689,37.2741757,right,1,1,1,0.6673083,381189,1,2024-09-10_16h28.30.209,adaptivestaricase,2024.1.5,None,2024-09-10 16h28.35.215850 +0530
31,5,1,37.2867107,,37.2742746,37.2867107,37.7868068,37.7868068,37.7868068,38.0862962,39.1393704,left,-1,0,0,1.3442113,381189,1,2024-09-10_16h28.30.209,adaptivestaricase,2024.1.5,None,2024-09-10 16h28.35.215850 +0530
32,5,6,39.1523327,,39.1394608,39.1523327,39.6522499,39.6522499,39.6522499,39.9519289,40.3220417,left,-6,1,1,0.665983,381189,1,2024-09-10_16h28.30.209,adaptivestaricase,2024.1.5,None,2024-09-10 16h28.35.215850 +0530
33,5,6,40.3347662,,40.3221287,40.3347662,40.8347028,40.8347028,40.8347028,41.1342317,41.4875468,right,6,1,1,0.6394811,381189,1,2024-09-10_16h28.30.209,adaptivestaricase,2024.1.5,None,2024-09-10 16h28.35.215850 +0530
34,5,6,41.5008972,,41.4876178,41.5008972,42.0005501,42.0005501,42.0005501,42.3006443,42.6539383,right,6,1,1,0.641822,381189,1,2024-09-10_16h28.30.209,adaptivestaricase,2024.1.5,None,2024-09-10 16h28.35.215850 +0530
35,5,1,42.666748,,42.6540143,42.666748,43.1667091,43.1667091,43.1667091,43.4664384,43.8364237,left,-1,1,1,0.6562217,381189,1,2024-09-10_16h28.30.209,adaptivestaricase,2024.1.5,None,2024-09-10 16h28.35.215850 +0530
36,5,1,43.8497788,,43.8364955,43.8497788,44.3494667,44.3494667,44.3494667,44.649535,45.1855597,left,-1,0,0,0.8242064,381189,1,2024-09-10_16h28.30.209,adaptivestaricase,2024.1.5,None,2024-09-10 16h28.35.215850 +0530
37,5,6,45.1986196,,45.1857463,45.1986196,45.6984773,45.6984773,45.6984773,45.9986339,46.5863612,right,6,1,1,0.8755434,381189,1,2024-09-10_16h28.30.209,adaptivestaricase,2024.1.5,None,2024-09-10 16h28.35.215850 +0530
38,5,6,46.5978028,,46.5864658,46.5978028,47.0977876,47.0977876,47.0977876,47.3973467,47.9342897,right,6,1,1,0.8304482,381189,1,2024-09-10_16h28.30.209,adaptivestaricase,2024.1.5,None,2024-09-10 16h28.35.215850 +0530
39,5,6,47.9473587,,47.9343756,47.9473587,48.446877,48.446877,48.446877,48.7464551,49.0507238,left,-6,1,1,0.5985837,381189,1,2024-09-10_16h28.30.209,adaptivestaricase,2024.1.5,None,2024-09-10 16h28.35.215850 +0530
40,5,1,49.0635767,,49.0508132,49.0635767,49.5630264,49.5630264,49.5630264,49.8626246,50.4985132,right,1,1,1,0.9222357,381189,1,2024-09-10_16h28.30.209,adaptivestaricase,2024.1.5,None,2024-09-10 16h28.35.215850 +0530
41,5,1,50.5125563,,50.4985951,50.5125563,51.0128291,51.0128291,51.0128291,51.3118993,51.9647531,right,1,1,1,0.9476805,381189,1,2024-09-10_16h28.30.209,adaptivestaricase,2024.1.5,None,2024-09-10 16h28.35.215850 +0530
42,5,1,51.9783228,,51.9648241,51.9783228,52.4778745,52.4778745,52.4778745,52.77806,53.2145601,left,-1,1,1,0.7232781,381189,1,2024-09-10_16h28.30.209,adaptivestaricase,2024.1.5,None,2024-09-10 16h28.35.215850 +0530
43,5,1,53.2287448,,53.2146334,53.2287448,53.7281987,53.7281987,53.7281987,54.0272418,54.6168107,right,1,1,1,0.8859476,381189,1,2024-09-10_16h28.30.209,adaptivestaricase,2024.1.5,None,2024-09-10 16h28.35.215850 +0530
44,5,1,54.6282152,,54.6168815,54.6282152,55.1268779,55.1268779,55.1268779,55.4272767,55.7961901,right,1,1,1,0.6648483,381189,1,2024-09-10_16h28.30.209,adaptivestaricase,2024.1.5,None,2024-09-10 16h28.35.215850 +0530
45,5,1,55.8096312,,55.7962621,55.8096312,56.3099097,56.3099097,56.3099097,56.6091845,57.0294511,left,-1,1,1,0.7049441,381189,1,2024-09-10_16h28.30.209,adaptivestaricase,2024.1.5,None,2024-09-10 16h28.35.215850 +0530
46,5,1,57.0429776,,57.0295451,57.0429776,57.5421778,57.5421778,57.5421778,57.8418674,58.261474,left,-1,1,1,0.7064824,381189,1,2024-09-10_16h28.30.209,adaptivestaricase,2024.1.5,None,2024-09-10 16h28.35.215850 +0530
47,5,1,58.2751905,,58.2615468,58.2751905,58.7754326,58.7754326,58.7754326,59.0747563,59.5451764,left,-1,1,1,0.7652087,381189,1,2024-09-10_16h28.30.209,adaptivestaricase,2024.1.5,None,2024-09-10 16h28.35.215850 +0530
48,5,1,59.5578453,,59.545267,59.5578453,60.0606534,60.0606534,60.0606534,60.3744378,60.7939797,right,1,1,1,0.7192023,381189,1,2024-09-10_16h28.30.209,adaptivestaricase,2024.1.5,None,2024-09-10 16h28.35.215850 +0530
49,5,1,60.807349,,60.7940675,60.807349,61.3084254,61.3084254,61.3084254,61.6232229,62.1970714,left,-1,1,1,0.8767344,381189,1,2024-09-10_16h28.30.209,adaptivestaricase,2024.1.5,None,2024-09-10 16h28.35.215850 +0530
50,5,1,62.2065444,,62.1971909,62.2065444,62.7075425,62.7075425,62.7075425,63.0226548,63.3273843,right,1,1,1,0.6102307,381189,1,2024-09-10_16h28.30.209,adaptivestaricase,2024.1.5,None,2024-09-10 16h28.35.215850 +0530
51,5,1,63.340086,,63.327483,63.340086,63.8408181,63.8408181,63.8408181,64.1557813,64.7588868,right,1,0,0,0.9120579,381189,1,2024-09-10_16h28.30.209,adaptivestaricase,2024.1.5,None,2024-09-10 16h28.35.215850 +0530
52,5,6,64.7720109,,64.7589724,64.7720109,65.2720271,65.2720271,65.2720271,65.5714761,65.9076217,left,-6,1,1,0.6264042,381189,1,2024-09-10_16h28.30.209,adaptivestaricase,2024.1.5,None,2024-09-10 16h28.35.215850 +0530
53,5,6,65.9211616,,65.9077029,65.9211616,66.4215295,66.4215295,66.4215295,66.7207299,67.1075548,right,6,1,1,0.6734747,381189,1,2024-09-10_16h28.30.209,adaptivestaricase,2024.1.5,None,2024-09-10 16h28.35.215850 +0530
54,5,6,67.1205731,,67.1076245,67.1205731,67.6205684,67.6205684,67.6205684,67.920311,68.1910289,left,-6,1,1,0.5652118,381189,1,2024-09-10_16h28.30.209,adaptivestaricase,2024.1.5,None,2024-09-10 16h28.35.215850 +0530
55,5,1,68.2036111,,68.1911214,68.2036111,68.703188,68.703188,68.703188,69.0031827,69.3057935,right,1,1,1,0.5866573,381189,1,2024-09-10_16h28.30.209,adaptivestaricase,2024.1.5,None,2024-09-10 16h28.35.215850 +0530
56,5,1,69.3197488,,69.3058653,69.3197488,69.8198156,69.8198156,69.8198156,70.1200576,70.4719759,left,-1,1,1,0.6378628,381189,1,2024-09-10_16h28.30.209,adaptivestaricase,2024.1.5,None,2024-09-10 16h28.35.215850 +0530
57,5,1,70.4853969,,70.4720498,70.4853969,70.9853751,70.9853751,70.9853751,71.285134,71.8229867,left,-1,0,0,0.8280078,381189,1,2024-09-10_16h28.30.209,adaptivestaricase,2024.1.5,None,2024-09-10 16h28.35.215850 +0530
58,5,6,71.8348412,,71.8230785,71.8348412,72.334668,72.334668,72.334668,72.6346807,72.9415342,left,-6,1,1,0.6025811,381189,1,2024-09-10_16h28.30.209,adaptivestaricase,2024.1.5,None,2024-09-10 16h28.35.215850 +0530
59,5,6,72.9508284,,72.941606,72.9508284,73.4509061,73.4509061,73.4509061,73.7507288,74.0038401,left,-6,1,1,0.5396244,381189,1,2024-09-10_16h28.30.209,adaptivestaricase,2024.1.5,None,2024-09-10 16h28.35.215850 +0530
60,5,6,74.016908,,74.0039229,74.016908,74.5164863,74.5164863,74.5164863,74.8166707,75.35356,right,6,1,1,0.8287723,381189,1,2024-09-10_16h28.30.209,adaptivestaricase,2024.1.5,None,2024-09-10 16h28.35.215850 +0530
61,5,1,75.3664991,,75.3536565,75.3664991,75.8660306,75.8660306,75.8660306,76.1656231,76.5028021,left,-1,1,1,0.6253081,381189,1,2024-09-10_16h28.30.209,adaptivestaricase,2024.1.5,None,2024-09-10 16h28.35.215850 +0530
62,5,1,76.5158343,,76.502892,76.5158343,77.0152307,77.0152307,77.0152307,77.3152801,77.6018655,left,-1,1,1,0.5757258,381189,1,2024-09-10_16h28.30.209,adaptivestaricase,2024.1.5,None,2024-09-10 16h28.35.215850 +0530
63,5,1,77.614994,,77.6019593,77.614994,78.1146689,78.1146689,78.1146689,78.4144043,78.9178325,left,-1,1,1,0.7957916,381189,1,2024-09-10_16h28.30.209,adaptivestaricase,2024.1.5,None,2024-09-10 16h28.35.215850 +0530
64,5,1,78.9308854,,78.9179271,78.9308854,79.4314692,79.4314692,79.4314692,79.7305098,80.3332268,left,-1,1,1,0.8899439,381189,1,2024-09-10_16h28.30.209,adaptivestaricase,2024.1.5,None,2024-09-10 16h28.35.215850 +0530
65,5,1,80.3469475,,80.3333065,80.3469475,80.8466761,80.8466761,80.8466761,81.1462876,81.6182695,left,-1,1,1,0.7627379,381189,1,2024-09-10_16h28.30.209,adaptivestaricase,2024.1.5,None,2024-09-10 16h28.35.215850 +0530
66,5,1,81.6296034,,81.6183739,81.6296034,82.1292563,82.1292563,82.1292563,82.429192,82.7819456,right,1,1,1,0.6388959,381189,1,2024-09-10_16h28.30.209,adaptivestaricase,2024.1.5,None,2024-09-10 16h28.35.215850 +0530
67,5,1,82.7954631,,82.782054,82.7954631,83.29549,83.29549,83.29549,83.5952151,84.2979853,right,1,1,1,1.0001225,381189,1,2024-09-10_16h28.30.209,adaptivestaricase,2024.1.5,None,2024-09-10 16h28.35.215850 +0530
68,5,1,84.3115882,,84.2980743,84.3115882,84.8118837,84.8118837,84.8118837,85.1113691,86.0477395,left,-1,0,0,1.2204296,381189,1,2024-09-10_16h28.30.209,adaptivestaricase,2024.1.5,None,2024-09-10 16h28.35.215850 +0530
69,5,6,86.0603966,,86.0478338,86.0603966,86.5605685,86.5605685,86.5605685,86.8602967,87.1798279,left,-6,1,1,0.6150255,381189,1,2024-09-10_16h28.30.209,adaptivestaricase,2024.1.5,None,2024-09-10 16h28.35.215850 +0530
70,5,6,87.1932314,,87.1799091,87.1932314,87.6929762,87.6929762,87.6929762,87.9929828,88.2802348,left,-6,1,1,0.5702887,381189,1,2024-09-10_16h28.30.209,adaptivestaricase,2024.1.5,None,2024-09-10 16h28.35.215850 +0530
71,5,6,88.2927314,,88.2803222,88.2927314,88.792723,88.792723,88.792723,89.0921828,89.512445,left,-6,1,1,0.7183989,381189,1,2024-09-10_16h28.30.209,adaptivestaricase,2024.1.5,None,2024-09-10 16h28.35.215850 +0530
72,5,1,89.5253819,,89.5125324,89.5253819,90.0255355,90.0255355,90.0255355,90.3248695,90.7119128,left,-1,0,0,0.6852706,381189,1,2024-09-10_16h28.30.209,adaptivestaricase,2024.1.5,None,2024-09-10 16h28.35.215850 +0530
73,5,6,90.7246449,,90.7119907,90.7246449,91.2248559,91.2248559,91.2248559,91.5242604,91.8964108,left,-6,1,1,0.6634416,381189,1,2024-09-10_16h28.30.209,adaptivestaricase,2024.1.5,None,2024-09-10 16h28.35.215850 +0530
74,5,6,91.9078751,,91.8965012,91.9078751,92.4075561,92.4075561,92.4075561,92.7072737,93.1265746,right,6,1,1,0.7143828,381189,1,2024-09-10_16h28.30.209,adaptivestaricase,2024.1.5,None,2024-09-10 16h28.35.215850 +0530
75,5,6,93.1402702,,93.1266456,93.1402702,93.6402106,93.6402106,93.6402106,93.9426351,94.3105433,left,-6,1,1,0.6532984,381189,1,2024-09-10_16h28.30.209,adaptivestaricase,2024.1.5,None,2024-09-10 16h28.35.215850 +0530
76,5,1,94.3232777,,94.3106354,94.3232777,94.8229458,94.8229458,94.8229458,95.1227517,96.0096179,right,1,1,1,1.1781464,381189,1,2024-09-10_16h28.30.209,adaptivestaricase,2024.1.5,None,2024-09-10 16h28.35.215850 +0530
77,5,1,96.0218696,,96.0096905,96.0218696,96.5216495,96.5216495,96.5216495,96.8214511,97.8740493,right,1,1,1,1.3367255,381189,1,2024-09-10_16h28.30.209,adaptivestaricase,2024.1.5,None,2024-09-10 16h28.35.215850 +0530
78,5,1,97.8875636,,97.8741354,97.8875636,98.3872492,98.3872492,98.3872492,98.6876511,99.290007,right,1,1,1,0.8927983,381189,1,2024-09-10_16h28.30.209,adaptivestaricase,2024.1.5,None,2024-09-10 16h28.35.215850 +0530
79,5,1,99.3034411,,99.2900963,99.3034411,99.8036813,99.8036813,99.8036813,100.1034389,100.5082171,right,1,1,1,0.7034123,381189,1,2024-09-10_16h28.30.209,adaptivestaricase,2024.1.5,None,2024-09-10 16h28.35.215850 +0530
80,5,1,100.519646,,100.5082894,100.519646,101.0194558,101.0194558,101.0194558,101.3190243,101.6723206,left,-1,1,1,0.6396454,381189,1,2024-09-10_16h28.30.209,adaptivestaricase,2024.1.5,None,2024-09-10 16h28.35.215850 +0530
81,5,1,101.6860706,,101.6724118,101.6860706,102.1856033,102.1856033,102.1856033,102.4850462,102.9049465,right,1,0,0,0.7053215,381189,1,2024-09-10_16h28.30.209,adaptivestaricase,2024.1.5,None,2024-09-10 16h28.35.215850 +0530
82,5,6,102.9182526,,102.9050243,102.9182526,103.4180327,103.4180327,103.4180327,103.7178755,104.137348,right,6,1,1,0.7068188,381189,1,2024-09-10_16h28.30.209,adaptivestaricase,2024.1.5,None,2024-09-10 16h28.35.215850 +0530
83,5,6,104.1510476,,104.1374343,104.1510476,104.65147,104.65147,104.65147,104.9506014,105.3868547,left,-6,1,1,0.718914,381189,1,2024-09-10_16h28.30.209,adaptivestaricase,2024.1.5,None,2024-09-10 16h28.35.215850 +0530
84,5,6,105.4008094,,105.3869403,105.4008094,105.9000104,105.9000104,105.9000104,106.2002002,106.3695891,right,6,0,0,0.4558731,381189,1,2024-09-10_16h28.30.209,adaptivestaricase,2024.1.5,None,2024-09-10 16h28.35.215850 +0530
85,5,11,106.3830714,,106.3696594,106.3830714,106.8661459,106.8661459,106.8661459,107.1661094,107.5867157,right,11,1,1,0.7055466,381189,1,2024-09-10_16h28.30.209,adaptivestaricase,2024.1.5,None,2024-09-10 16h28.35.215850 +0530
86,5,11,107.5994926,,107.5868034,107.5994926,108.098968,108.098968,108.098968,108.3986264,108.751561,right,11,1,1,0.6392731,381189,1,2024-09-10_16h28.30.209,adaptivestaricase,2024.1.5,None,2024-09-10 16h28.35.215850 +0530
87,5,11,108.7652464,,108.751633,108.7652464,109.250545,109.250545,109.250545,109.5649146,109.9185526,right,11,1,1,0.6516863,381189,1,2024-09-10_16h28.30.209,adaptivestaricase,2024.1.5,None,2024-09-10 16h28.35.215850 +0530
88,5,6,109.9314744,,109.9186459,109.9314744,110.4314847,110.4314847,110.4314847,110.7313835,111.268476,right,6,1,1,0.8190818,381189,1,2024-09-10_16h28.30.209,adaptivestaricase,2024.1.5,None,2024-09-10 16h28.35.215850 +0530
89,5,6,111.2806512,,111.2686031,111.2806512,111.7802889,111.7802889,111.7802889,112.0800552,112.5334746,right,6,1,1,0.7470212,381189,1,2024-09-10_16h28.30.209,adaptivestaricase,2024.1.5,None,2024-09-10 16h28.35.215850 +0530
90,5,6,112.5465826,,112.5335453,112.5465826,113.046582,113.046582,113.046582,113.3461957,113.9655046,right,6,1,1,0.9121162,381189,1,2024-09-10_16h28.30.209,adaptivestaricase,2024.1.5,None,2024-09-10 16h28.35.215850 +0530
91,5,1,113.9793123,,113.9656079,113.9793123,114.4793386,114.4793386,114.4793386,114.778891,115.148517,right,1,0,0,0.6659709,381189,1,2024-09-10_16h28.30.209,adaptivestaricase,2024.1.5,None,2024-09-10 16h28.35.215850 +0530
92,5,6,115.162131,,115.148592,115.162131,115.661728,115.661728,115.661728,115.9616262,116.3813534,left,-6,1,1,0.7184214,381189,1,2024-09-10_16h28.30.209,adaptivestaricase,2024.1.5,None,2024-09-10 16h28.35.215850 +0530
93,5,6,116.3950069,,116.3814272,116.3950069,116.8942983,116.8942983,116.8942983,117.19456,117.6635354,right,6,1,1,0.7595394,381189,1,2024-09-10_16h28.30.209,adaptivestaricase,2024.1.5,None,2024-09-10 16h28.35.215850 +0530
94,5,6,117.6774666,,117.6636054,117.6774666,118.1773079,118.1773079,118.1773079,118.476633,118.7798704,left,-6,1,1,0.600537,381189,1,2024-09-10_16h28.30.209,adaptivestaricase,2024.1.5,None,2024-09-10 16h28.35.215850 +0530
95,5,1,118.7937168,,118.7799544,118.7937168,119.2929978,119.2929978,119.2929978,119.5927609,119.9302749,right,1,1,1,0.6324294,381189,1,2024-09-10_16h28.30.209,adaptivestaricase,2024.1.5,None,2024-09-10 16h28.35.215850 +0530
96,5,1,119.9428784,,119.930355,119.9428784,120.4424254,120.4424254,120.4424254,120.7424217,121.3625388,left,-1,0,0,0.9024328,381189,1,2024-09-10_16h28.30.209,adaptivestaricase,2024.1.5,None,2024-09-10 16h28.35.215850 +0530
97,5,6,121.3753559,,121.362644,121.3753559,121.87506,121.87506,121.87506,122.1747344,122.4285793,left,-6,1,1,0.5376126,381189,1,2024-09-10_16h28.30.209,adaptivestaricase,2024.1.5,None,2024-09-10 16h28.35.215850 +0530
98,5,6,122.4412453,,122.4286659,122.4412453,122.9412208,122.9412208,122.9412208,123.2408463,123.5775549,right,6,1,1,0.6263986,381189,1,2024-09-10_16h28.30.209,adaptivestaricase,2024.1.5,None,2024-09-10 16h28.35.215850 +0530
99,5,6,123.5908984,,123.5777145,123.5908984,124.0905285,124.0905285,124.0905285,124.390267,124.8431252,right,6,1,1,0.7464646,381189,1,2024-09-10_16h28.30.209,adaptivestaricase,2024.1.5,None,2024-09-10 16h28.35.215850 +0530
,,,,,,,,,,,,,,,,,,,,,,,
,,,,,,,,,,,,,,,,,,,,,,,
,,,,,,,,,,,,,,,,,,,,,,,
,,,,,,,,,,,,,,,,,,,,,,,
,,,,,,,,,,,,,,,,,,,,,,,
67,5,1,82.7954631,,82.782054,82.7954631,83.29549,83.29549,83.29549,83.5952151,84.2979853,right,1,1,1,1.0001225,381189,1,2024-09-10_16h28.30.209,adaptivestaricase,2024.1.5,None,2024-09-10 16h28.35.215850 +0530
68,5,1,84.3115882,,84.2980743,84.3115882,84.8118837,84.8118837,84.8118837,85.1113691,86.0477395,left,-1,0,0,1.2204296,381189,1,2024-09-10_16h28.30.209,adaptivestaricase,2024.1.5,None,2024-09-10 16h28.35.215850 +0530
90,5,6,112.5465826,,112.5335453,112.5465826,113.046582,113.046582,113.046582,113.3461957,113.9655046,right,6,1,1,0.9121162,381189,1,2024-09-10_16h28.30.209,adaptivestaricase,2024.1.5,None,2024-09-10 16h28.35.215850 +0530
91,5,1,113.9793123,,113.9656079,113.9793123,114.4793386,114.4793386,114.4793386,114.778891,115.148517,right,1,0,0,0.6659709,381189,1,2024-09-10_16h28.30.209,adaptivestaricase,2024.1.5,None,2024-09-10 16h28.35.215850 +0530
95,5,1,118.7937168,,118.7799544,118.7937168,119.2929978,119.2929978,119.2929978,119.5927609,119.9302749,right,1,1,1,0.6324294,381189,1,2024-09-10_16h28.30.209,adaptivestaricase,2024.1.5,None,2024-09-10 16h28.35.215850 +0530
96,5,1,119.9428784,,119.930355,119.9428784,120.4424254,120.4424254,120.4424254,120.7424217,121.3625388,left,-1,0,0,0.9024328,381189,1,2024-09-10_16h28.30.209,adaptivestaricase,2024.1.5,None,2024-09-10 16h28.35.215850 +0530
90,5,6,112.5465826,,112.5335453,112.5465826,113.046582,113.046582,113.046582,113.3461957,113.9655046,right,6,1,1,0.9121162,381189,1,2024-09-10_16h28.30.209,adaptivestaricase,2024.1.5,None,2024-09-10 16h28.35.215850 +0530
91,5,1,113.9793123,,113.9656079,113.9793123,114.4793386,114.4793386,114.4793386,114.778891,115.148517,right,1,0,0,0.6659709,381189,1,2024-09-10_16h28.30.209,adaptivestaricase,2024.1.5,None,2024-09-10 16h28.35.215850 +0530
67,5,1,82.7954631,,82.782054,82.7954631,83.29549,83.29549,83.29549,83.5952151,84.2979853,right,1,1,1,1.0001225,381189,1,2024-09-10_16h28.30.209,adaptivestaricase,2024.1.5,None,2024-09-10 16h28.35.215850 +0530
68,5,1,84.3115882,,84.2980743,84.3115882,84.8118837,84.8118837,84.8118837,85.1113691,86.0477395,left,-1,0,0,1.2204296,381189,1,2024-09-10_16h28.30.209,adaptivestaricase,2024.1.5,None,2024-09-10 16h28.35.215850 +0530
,,,,,,,,,,,,,,,,,,,,,,,
,,,,,,,,to calculate mean ,,absolute threshold,,accuracy of the data ,,,,,,,,,,,
,,,,,,,,1,,3,,92%,,,,,,,,,,,
,,,,,,,,6,,,,,,,,,,,,,,,
,,,,,,,,1,,,,,,,,,,,,,,,
,,,,,,,,6,,,,,,,,,,,,,,,
,,,,,,,,1,,,,,,,,,,,,,,,
